File: tensileTest/data/tensile_comp_2021-01-29-12-32-25_displacement.csv
time (s),motor position (nm),sensor position (nm)
0.0810198,0,0
0.681218,-360,1348
1.28133,-286,665
1.88129,-471,863
3.21763,63773,519
3.24755,374979,116
3.27757,678841,1678
3.30757,981326,363
3.33746,1281213,96
3.36747,1581135,1192
3.39764,1880402,1523
3.42749,2072099,75
3.45743,2475198,1834
3.48774,2779020,756
3.51737,3080216,880
3.54736,3380350,-648
3.57767,3679766,2385
3.60759,3962301,-130
3.63748,4272876,-1101
3.66753,4578820,2224
3.69752,4880463,20
3.72752,5180792,-892
3.75751,5480911,765
3.78734,5778787,1580
3.81755,6018148,342
3.84744,6375746,702
3.8775,6678880,1661
3.90748,6979965,1089
3.93747,7279891,779
3.96746,7579026,1518
3.99743,7847301,973
4.02768,8172991,-29
4.05757,8477966,2121
4.0877,8780173,-775
4.11761,9080005,-970
4.14752,9380288,1860
4.17771,9679004,461
4.20736,9956813,-705
4.23749,10276422,1534
4.2676,10579062,1904
4.29745,10879766,-470
4.32763,11179762,2395
4.35756,11479781,-579
4.38746,11585264,677
4.41754,12075032,1225
4.4475,12378492,1357
4.47751,12680248,576
4.50743,12980165,3208
4.53744,13280222,-733
4.56774,13576353,94
4.59746,13870690,2508
4.62763,14177951,-1768
4.65748,14479807,-3015
4.68768,14780602,3084
4.71744,15080217,352
4.74748,15379077,-3683
4.77744,15582578,581
4.80763,15975160,5503
4.83756,16278510,-1767
4.86772,16579440,1524
4.89769,16880809,1217
4.92764,17179671,-1329
4.95762,17454546,-940
4.98761,17772570,1897
5.01757,18078013,1301
5.04764,18380258,-86
5.07757,18679203,1159
5.10742,18980037,808
5.13744,19278144,199
5.16746,19557381,1359
5.19765,19876887,722
5.22755,20179711,1001
5.25759,20480212,1490
5.28749,20780294,64
5.31763,21079717,162
5.34772,21178277,829
5.37747,21675143,-212
5.40746,21978064,104
5.43744,22279583,896
5.46749,22580911,393
5.49771,22880833,-418
5.52753,23175669,-774
5.55741,23470981,1082
5.58751,23778650,-345
5.61749,24079357,-1055
5.64771,24381766,-392
5.67752,24680760,-142
5.70759,24979568,-3088
5.73766,25210754,821
5.76749,25576779,5513
5.79772,25879090,531
5.82756,26179763,-816
5.85771,26480965,2023
5.88755,26780609,4722
5.91768,27049182,4043
5.94752,27373477,1410
5.97746,27678887,3535
6.00746,27978969,3849
6.03765,28279825,3264
6.06741,28579704,4008
6.09757,28878272,3876
6.12764,29162668,3797
6.15737,29477356,4097
6.18739,29779445,3980
6.21753,30080469,3818
6.24739,30380170,2670
6.27761,30679193,3479
6.3075,30851547,3773
6.33752,31276030,4329
6.3677,31578699,4075
6.39766,31881056,3662
6.42753,32180256,4431
6.45746,32479688,4958
6.48744,32750291,3461
6.5175,33073946,3859
6.54766,33378734,4299
6.57769,33679660,3890
6.60745,33980765,4206
6.6375,34280505,4127
6.66766,34579261,3901
6.69772,34859388,573
6.7277,35177886,4691
6.75769,35479367,5913
6.7875,35781065,5118
6.81743,36080945,3228
6.84753,36380085,3856
6.87764,36505768,4498
6.90755,36975676,4041
6.93771,37278943,4429
6.96751,37579973,3993
6.99749,37879651,4348
7.02748,38179593,4308
7.05762,38454590,4383
7.08741,38773023,4239
7.11769,39079171,5107
7.14748,39380624,4234
7.17767,39679829,4177
7.20771,39981004,5139
7.23753,40278772,4969
7.26753,40562283,2775
7.29769,40877081,4109
7.32751,41179726,3684
7.35761,41480002,4577
7.38763,41780254,4215
7.41751,42078829,2651
7.44763,42260561,4395
7.47745,42675284,5191
7.50769,42979025,2054
7.53776,43281745,6271
7.56759,43580154,4475
7.59744,43880129,4130
7.62747,44148082,3837
7.65749,44473655,5112
7.6875,44778762,2782
7.71751,45080462,3574
7.74764,45380969,5179
7.77767,45680645,5484
7.80752,45979227,3732
7.83767,46258540,3750
7.86765,46576995,4749
7.89742,46880153,4999
7.92751,47179470,4323
7.95755,47479189,4898
7.98745,47778921,3788
8.01757,47932403,4533
8.04743,48375392,4586
8.0774,48678736,4720
8.10757,48980262,3830
8.13752,49280371,5489
8.16744,49580121,3770
8.19766,49850328,3321
8.22772,50173980,4748
8.25744,50479088,4861
8.28746,50781185,3639
8.31754,51080505,3887
8.34751,51380005,4667
8.37753,51679034,3818
8.40751,51964635,2213
8.43744,52277165,3908
8.46769,52579539,3738
8.49752,52880533,3398
8.52765,53179726,4614
8.55768,53480467,5177
8.58746,53698800,5122
8.61753,54076567,3399
8.64754,54380039,4579
8.67753,54681143,5691
8.70767,54980729,4402
8.73775,55280448,4013
8.76749,55539624,5122
8.7975,55873618,-216499
8.82751,56177380,-47637
8.85744,56479390,-76307
8.88761,56781338,42835
8.91761,57079407,-634051
8.94753,57376879,-13074
8.97779,57666500,426275
9.0077,57978539,677548
9.03758,58279541,155570
9.06768,58581329,427132
9.09774,58880937,478579
9.12758,59178562,295095
9.1576,59436719,100295
9.18743,59777338,120478
9.21747,60080513,25324
9.24754,60379389,32874
9.27766,60681199,-13287
9.30768,60978546,417022
9.33747,61038222,313367
9.36745,61575413,407271
9.39754,61879286,622451
9.42754,62181541,371994
9.45755,62481558,239239
9.48742,62779705,266021
9.51745,63068387,307507
9.54758,63373237,281869
9.57763,63679120,285462
9.6075,63980076,280055
9.63776,64281677,279500
9.66757,64580973,281462
9.69767,64879481,280403
9.72768,65152938,282962
9.75757,65478348,281224
9.78738,65779515,280752
9.81737,66080405,280190
9.84757,66380668,280463
9.87753,66679106,-447503
9.90773,66753385,-234308
9.93741,67274398,230496
9.96759,67577235,-261008
9.99759,67878971,745516
10.0275,68178950,444808
10.0574,68477378,773707
10.0875,68761452,487086
10.1178,69072268,151396
10.1477,69377878,293251
10.1775,69680407,92996
10.2076,69981269,286023
10.2375,70281290,117569
10.2675,70580172,128448
10.2977,70862824,168803
10.3275,71177411,142933
10.3576,71480138,140313
10.3875,71781090,140539
10.4175,72080259,141727
10.4475,72379449,141110
10.4776,72587840,141410
10.5074,72975669,142168
10.5375,73280262,140625
10.5676,73580454,347601
10.5975,73881622,624806
10.6276,74179186,158715
10.6575,74437125,135772
10.6877,74775293,-417707
10.7175,75080773,-27256
10.7476,75380815,175637
10.7776,75681151,102659
10.8074,75980970,-482526
10.8377,76279367,273548
10.8676,76565168,129228
10.8977,76877917,202779
10.9276,77180392,549513
10.9574,77480833,178783
10.9875,77779398,30576
11.0175,78080372,-553568
11.0475,78317776,111074
11.0778,78676317,-36442
11.1075,78979838,342064
11.1375,79280851,379290
11.1675,79581618,1320468
11.1977,79880243,1277416
11.2275,79944748,2082911
11.2576,80476379,2233233
11.2875,80779470,3762280
11.3176,81081263,5626645
11.3476,81380715,7397604
11.3774,81680864,9174812
11.4077,81976150,10920199
11.4376,82270321,10992960
11.4675,82577894,10963001
11.4975,82879813,12796717
11.5274,83179898,12774423
11.5577,83480063,12766151
11.5876,83779239,12758843
11.6176,84043566,12758255
11.6475,84377464,12754437
11.6774,84679798,12755835
11.7076,84980720,12752851
11.7376,85281002,12752256
11.7676,85580526,12749820
11.7975,85674122,12749214
11.8275,86175112,12745733
11.8576,86479308,12746305
11.8877,86780793,12744005
11.9174,87080979,12742575
11.9476,87380657,12741235
11.9775,87677942,12740205
12.0076,87969762,12738229
12.0375,88277648,12738159
12.0675,88579950,12736000
12.0976,88880726,12735493
12.1275,89180551,12734394
12.1575,89479728,12734442
12.1876,89737388,12731889
12.2176,90076802,14614895
12.2475,90378833,16521049
12.2776,90680257,16577669
12.3075,90978722,18543586
12.3375,91278893,20307871
12.3675,91340429,20377919
12.3975,91874623,22157644
12.4276,92178763,22135042
12.4575,92480931,24020919
12.4876,92781588,25712254
12.5175,93080584,25763482
12.5476,93376778,27586106
12.5775,93673194,29373091
12.6077,93979019,31367486
12.6374,94280309,31178638
12.6675,94582226,33135899
12.6976,94881864,34631816
12.7277,95181017,35077291
12.7574,95430916,36922438
12.7874,95777068,36971557
12.8175,96079804,38837217
12.8477,96380694,38777164
12.8776,96680683,38769604
12.9076,96979475,40620260
12.9376,97068858,40587570
12.9674,97574103,42417946
12.9975,97877963,42417431
13.0277,98180267,44067864
13.0575,98480826,44142522
13.0874,98779115,44134658
13.1175,99075723,45954002
13.1477,99369958,45903805
13.1778,99678493,47782379
13.2075,99979972,47710895
13.2375,100281545,47702217
13.2677,100580946,49571414
13.2976,100880547,49573630
13.3274,101133235,51431212
13.3575,101477039,51431088
13.3876,101780519,53294643
13.4177,102081697,53377648
13.4477,102380872,54744830
13.4777,102679370,55270696
13.5076,102741546,56166693
13.5377,103275182,57047286
13.5676,103578924,58531886
13.5975,103880974,58933121
13.6275,104180598,58920436
13.6577,104480335,60714328
13.6876,104777678,62373333
13.7175,105070168,62437538
13.7477,105379568,62412585
13.7776,105681078,62400809
13.8076,105981354,62392159
13.8376,106280812,62384911
13.8675,106580138,62375876
13.8975,106787740,62368417
13.9274,107176099,62358349
13.9576,107480312,62351183
13.9876,107780528,62341050
14.0177,108080422,62335517
14.0477,108380824,62325999
14.0776,108638920,62320189
14.1076,108975081,62312261
14.1375,109279342,62304609
14.1678,109580878,62297193
14.1976,109881025,62290180
14.2277,110180258,62283008
14.2577,110478655,62276195
14.2876,110766094,62269239
14.3177,111078091,62263403
14.3477,111379787,62255050
14.3775,111681474,62247897
14.4076,111980264,62242038
14.4375,112279746,62235343
14.4675,112485181,62227178
14.4976,112876810,62220536
14.5277,113180124,62213105
14.5575,113482223,62206916
14.5874,113781295,62200046
14.6176,114080445,62193320
14.6476,114356618,62187599
14.6777,114674293,62179905
14.7075,114979323,62173926
14.7375,115280414,62166980
14.7676,115581346,62160629
14.7975,115881326,62153727
14.8277,116179726,62148245
14.8577,116447347,62140791
14.8875,116777682,62135901
14.9177,117080752,62129188
14.9476,117381324,62124084
14.9776,117680646,62118368
15.0076,117980336,62112476
15.0377,118087315,62107776
15.0675,118575517,62101556
15.0975,118879178,62095641
15.1279,119181291,62091181
15.1576,119481832,62085023
15.1876,119780520,62079578
15.2178,120075878,62074544
15.2476,120372864,62067987
15.2775,120679212,62064592
15.3077,120980926,62058757
15.3376,121281472,62053702
15.3675,121581027,62048701
15.3975,121880270,62043648
15.4275,122137244,62039142
15.4575,122476408,62032803
15.4876,122779861,62028752
15.5178,123081244,62024061
15.5475,123380707,62019974
15.5777,123680773,62014465
15.6077,123784659,62010152
15.6377,124275939,62004326
15.6677,124580126,62000871
15.6976,124881748,61995585
15.7276,125181483,61989728
15.7575,125481490,61985838
15.7877,125779256,61980872
15.8175,126061663,61976605
15.8477,126377861,61972709
15.8775,126680552,61967913
15.9075,126980523,61964434
15.9375,127280566,61959528
15.9676,127580160,61955760
15.9976,127681329,61951643
16.0278,128176394,61946454
16.0575,128479765,61942689
16.0878,128781183,61937917
16.1175,129081131,61934172
16.1478,129380585,61929728
16.1775,129677232,61925164
16.2075,129971063,61920748
16.2376,130278812,61917181
16.2675,130580472,61913206
16.2976,130881651,61910388
16.3274,131180945,61905251
16.3576,131479789,61901791
16.3876,131713525,61898626
16.4175,132076656,61895341
16.4475,132379742,61890792
16.4776,132681068,61885950
16.5076,132981695,61882727
16.5376,133280511,61878546
16.5676,133546478,60067861
16.5977,133875162,60114045
16.6276,134180597,58144491
16.6575,134481940,58171807
16.6877,134782578,56296414
16.7175,135081757,54483056
16.7478,135379531,52585747
16.7775,135643789,50650026
16.8077,135977447,46813730
16.8374,136280747,44839651
16.8678,136581643,41283163
16.8976,136880821,37797124
16.9275,137180711,33500769
16.9576,137334019,27955398
16.9876,137775157,22861545
17.0175,138078462,19219671
17.0475,138379250,17159094
17.0775,138680010,16794183
17.1077,138979345,13998472
17.1376,139277760,10096852
17.1675,139565852,7620081
17.1976,139878449,4547059
17.2275,140180668,3046186
17.2578,140481844,1558591
17.2877,140782540,1007732
17.3177,141081292,331365
17.3478,141222544,689357
17.3776,141676454,528630
17.4075,141979359,-510964
17.4375,142279906,345588
17.4676,142582040,716531
17.4976,142880188,-470480
17.5277,143177021,45441
17.5576,143471475,496967
17.5875,143778745,482917
17.6175,144081038,456664
17.6477,144381979,439417
17.6776,144681320,434022
17.7076,144980913,428389
17.7375,145160652,429652
17.7677,145577294,430635
17.7975,145880153,429508
17.8277,146181989,427835
17.8576,146481941,429531
17.8875,146780946,428769
17.9175,147077781,427902
17.9476,147370026,428899
17.9776,147678747,428234
18.0076,147980634,427334
18.0378,148281236,427711
18.0677,148581762,428480
18.0975,148879825,428064
18.1276,149085856,427568
18.1575,149476224,428118
18.1876,149779678,428402
18.2176,150080599,428587
18.2475,150382128,428596
18.2775,150679568,427694
18.3076,150975159,427573
18.3375,151271978,428924
18.3677,151578964,427792
18.3976,151881143,428074
18.4275,152181007,427134
18.4575,152480628,428753
18.4876,152781213,427102
18.5176,153015515,427739
18.5478,153377368,427717
18.5776,153680220,427430
18.6075,153981517,427324
18.6376,154281638,428116
18.6676,154580635,428315
18.6975,154872729,426802
18.7277,155172749,427615
18.7576,155478536,428485
18.7876,155780476,427465
18.8176,156081000,427646
18.8476,156381166,426611
18.8776,156680075,427460
18.9077,156895977,426522
18.9378,157277108,426800
18.9677,157578878,427957
18.9978,157881006,427277
19.0275,158181062,426317
19.0577,158480227,426736
19.0877,158766584,427201
19.1177,159073762,427375
19.1476,159378708,426412
19.1778,159681210,427588
19.2075,159981492,427049
19.2379,160281536,426659
19.2675,160580562,426133
19.2975,160816819,427174
19.3276,161177196,427071
19.3576,161479649,427018
19.3878,161780849,426472
19.4175,162081714,426846
19.4476,162380924,427199
19.4776,162662973,426135
19.5078,162973129,424316
19.5376,163279523,425729
19.5678,163581257,426818
19.5976,163881092,425041
19.6277,164182228,424876
19.6576,164481314,426158
19.6876,164711590,426455
19.7176,165076901,425436
19.7475,165379864,424707
19.7778,165682273,424687
19.8075,165982609,425464
19.8375,166281545,425493
19.8675,166577143,425755
19.8976,166871340,425416
19.9277,167177210,424345
19.9574,167480406,426957
19.9876,167781527,424988
20.0178,168081708,425323
20.0478,168380864,425491
20.0776,168567787,426304
20.1076,168976756,425400
20.1375,169279508,426020
20.1676,169581319,424908
20.1978,169881887,425481
20.2278,170181117,425336
20.2577,170477924,425235
20.2876,170771537,425506
20.3176,171079022,636645
20.3476,171381224,846286
20.3776,171679959,273429
20.4077,171981229,201041
20.4374,172279393,145808
20.4677,172465224,1207870
20.4976,172874449,368808
20.5275,173179611,298174
20.5576,173482286,350087
20.5877,173783052,188501
20.6176,174082134,129122
20.6478,174377770,330938
20.6776,174669814,259869
20.7076,174978837,-204649
20.7375,175279914,226290
20.7676,175581351,578898
20.7977,175882005,505239
20.8278,176180236,660048
20.8575,176296517,334194
20.8876,176775811,838705
20.9176,177079485,3274973
20.9475,177381404,3361169
20.9777,177681777,4970272
21.0078,177981424,6769129
21.0378,178278547,8263192
21.0677,178566571,10355279
21.0977,178878754,10476608
21.1276,179180724,12361077
21.1577,179479255,14272765
21.1877,179780524,16136003
21.2177,180079077,18031239
21.2478,180223118,18137997
21.2778,180676355,18045812
21.3077,180980202,18049570
21.3378,181280953,18028810
21.3677,181581957,18029965
21.3977,181881732,18026218
21.4275,182178368,18023105
21.4575,182467533,18017301
21.4878,182778189,18015856
21.5178,183080668,18013319
21.5475,183381309,18012626
21.5775,183680585,18010386
21.6075,183980962,18008613
21.6377,184096953,18005625
21.6675,184576049,18004644
21.6975,184879623,18002551
21.7276,185181359,18000542
21.7576,185482665,17997528
21.7875,185781964,17997440
21.8176,186080286,19825861
21.8476,186355748,21680075
21.8775,186676757,21666973
21.9075,186981247,23373645
21.9375,187282075,25245731
21.9678,187582201,27049385
21.9976,187882589,30253222
22.0276,188136235,32541589
22.0575,188474739,34541762
22.0875,188780532,36492846
22.1175,189081789,38255260
22.1475,189381374,40195555
22.1778,189682153,40118996
22.2078,189980324,40114213
22.2376,190248791,41722367
22.2675,190576518,41934178
22.2976,190880113,41908454
22.3278,191180722,43650677
22.3578,191481715,43607539
22.3879,191780914,43618197
22.4176,192035145,43609628
22.4478,192375478,45237759
22.4777,192678302,45439548
22.5076,192981411,45406342
22.5377,193282826,45396278
22.5676,193582022,45387706
22.5977,193880817,45385567
22.6276,194147570,45384391
22.6576,194477729,45378148
22.6877,194781783,45374669
22.7174,195081010,45367843
22.7476,195381938,45362495
22.7775,195680136,45357268
22.8078,195961428,45354348
22.8376,196273551,45349290
22.8678,196579776,45345140
22.8976,196880213,45341405
22.9276,197181213,45337347
22.9577,197480745,45333400
22.9875,197780266,45328226
23.0176,198032665,45324479
23.0476,198377266,45319799
23.0777,198680665,45314838
23.1076,198981464,45312234
23.1376,199282226,45307850
23.1678,199580675,45303067
23.1976,199850821,45299555
23.2276,200174037,45295250
23.2578,200480163,45292228
23.2877,200780271,45288115
23.3175,201081745,45284689
23.3475,201379971,45280948
23.3778,201680771,45277172
23.4076,201936875,45274226
23.4374,202276399,45269845
23.4678,202581231,45266300
23.4976,202881413,45263673
23.5275,203181556,45258657
23.5578,203480852,45257003
23.5877,203750829,45253724
23.6175,204074008,45249939
23.6476,204380627,45246171
23.6776,204681355,45243101
23.7075,204981092,45240288
23.7376,205281742,45237607
23.7675,205581564,45234243
23.7976,205813293,45230266
23.8274,206176634,45229185
23.8577,206479628,45225957
23.8875,206781191,45222499
23.9176,207082433,45218789
23.9475,207380222,45215710
23.9777,207675038,45213970
24.0078,207972355,45212576
24.0376,208279316,45208774
24.0677,208580802,45206152
24.0976,208881685,45204795
24.1276,209180665,45201214
24.1577,209479413,45198944
24.1876,209708848,45196185
24.2174,210076089,45195071
24.2477,210380419,45192003
24.2775,210681622,45190784
24.3078,210982403,45187990
24.3376,211280854,45185919
24.3677,211566968,45182358
24.3975,211873214,45179556
24.4277,212179157,45177861
24.4576,212481118,45175341
24.4876,212781888,45172761
24.5176,213080737,45172222
24.5478,213380880,45168703
24.5776,213628077,45167210
24.6075,213977362,45165072
24.6377,214279267,45163988
24.6675,214581701,45161288
24.6979,214882539,45159284
24.7278,215181625,45157169
24.7577,215469269,45155601
24.7877,215772764,45154563
24.8175,216078354,45151333
24.8476,216381396,45148642
24.8779,216681828,45147972
24.9077,216981054,45146988
24.9377,217280219,45143873
24.9678,217524661,45141478
24.9976,217877246,45140116
25.0277,218179151,45138857
25.0575,218480571,45137483
25.0875,218780686,45135361
25.1177,219081274,45132934
25.1477,219346932,45131098
25.1778,219675018,45130132
25.2076,219980330,45128457
25.2378,220281088,45126946
25.2679,220582547,45124107
25.2976,220881659,45122812
25.3278,221180123,45120556
25.3577,221446765,45118588
25.3875,221776857,45117020
25.4176,222080391,45116160
25.4476,222381745,45113803
25.4776,222681657,45113558
25.5076,222980859,45112040
25.5378,223183722,45110528
25.5677,223575069,45108456
25.5975,223879878,45107991
25.6276,224182243,45107339
25.6575,224482095,45104845
25.6876,224782647,45103459
25.7178,225081269,45101317
25.7475,225353199,45099548
25.7778,225677828,45097695
25.8076,225981206,45097692
25.8378,226282843,45095132
25.8677,226582356,45092983
25.8977,226881788,45091060
25.9278,227139424,45089223
25.9575,227475102,45089095
25.9879,227780616,45087433
26.0176,228080376,45085052
26.0475,228380685,45084081
26.0776,228681770,45083550
26.1077,228979393,45080994
26.1377,229255639,44620285
26.1677,229577973,43198963
26.1977,229881138,41720226
26.2277,230181892,41408112
26.2577,230482138,39696392
26.2875,230781484,37682385
26.3176,230864530,35782319
26.3478,231376632,33944551
26.3776,231681484,31956803
26.4076,231979611,30046429
26.4375,232279812,26576160
26.4676,232580354,24577765
26.4975,232876794,22783332
26.5277,233166512,19104005
26.5578,233478866,16699998
26.5878,233781564,13585492
26.6178,234081884,11538104
26.6477,234383184,9732615
26.6777,234681234,7855932
26.7076,234816181,4618068
26.7376,235277803,2931886
26.7678,235580888,2958372
26.7977,235882235,2018957
26.8277,236182803,1538080
26.8576,236483754,518614
26.8876,236778003,227411
26.9177,237067616,398719
26.9475,237377842,399084
26.9777,237680284,380493
27.0077,237981642,362711
27.0377,238280754,381716
27.0676,238581079,374954
27.0977,238794548,368921
27.1276,239177187,375569
27.1578,239480964,375999
27.1877,239781803,373415
27.2176,240080915,371978
27.2477,240381065,374620
27.2775,240666508,374080
27.3077,240973784,372351
27.3377,241278646,373279
27.3676,241580798,373774
27.3978,241882397,372903
27.4278,242181212,372989
27.4576,242480813,373511
27.4878,242744465,461461
27.5177,243078596,941540
27.5478,243381646,273933
27.5777,243683163,825095
27.6077,243982914,376086
27.6377,244282172,662202
27.6679,244537854,1140208
27.6975,244874417,439289
27.7276,245179028,38950
27.7575,245480229,1088890
27.7878,245781053,677019
27.8177,246080218,327267
27.8476,246381351,-355956
27.8778,246643871,155759
27.9076,246978150,227239
27.9376,247281410,207764
27.9677,247580737,228159
27.9977,247881691,210395
28.0275,248180962,207832
28.0576,248385803,204874
28.0877,248774980,207137
28.1176,249079499,206174
28.1475,249381572,206655
28.1779,249681782,206860
28.2078,249982092,206554
28.2376,250280035,205829
28.2676,250564475,206410
28.2976,250878912,206369
28.3276,251181364,207379
28.3576,251481939,207084
28.3878,251782129,207014
28.4177,252081879,206346
28.4478,252222613,207103
28.4777,252676623,206803
28.5077,252979199,206325
28.5378,253282817,206743
28.5676,253582024,206460
28.5975,253880984,205960
28.6277,254178747,205412
28.6577,254472519,206416
28.6876,254778281,207503
28.7178,255081822,206402
28.7476,255382744,206882
28.7775,255681844,207092
28.8077,255981393,206427
28.8375,256175668,206649
28.8676,256577818,206704
28.8976,256879363,207265
28.9276,257181840,206272
28.9577,257481637,206143
28.9876,257781724,206538
29.0177,258057734,206863
29.0476,258374330,206864
29.0775,258678889,206041
29.1077,258981737,206186
29.1376,259282328,206342
29.1676,259581556,206069
29.1977,259881449,205689
29.2278,260154049,207316
29.2576,260478178,205672
29.2876,260781011,207750
29.3178,261082017,204749
29.3477,261382286,206893
29.3777,261681734,206500
29.4076,261757401,206288
29.4378,262277066,206010
29.4675,262579837,205819
29.4976,262881231,206038
29.5278,263180908,204839
29.5575,263481352,204791
29.5877,263778352,207220
29.6179,264069131,205762
29.6476,264379463,204850
29.6779,264682009,205816
29.7077,264983209,203989
29.7375,265282278,206003
29.7677,265581976,204750
29.7976,265703483,204321
29.8278,266176802,204818
29.8576,266480266,204554
29.8876,266782089,204455
29.9177,267080862,204265
29.9477,267382000,205288
29.9778,267679025,204487
30.0079,267970583,205615
30.0377,268277209,205315
30.0677,268580906,205483
30.0977,268882408,205866
30.1276,269181889,204501
30.1575,269480786,205439
30.1878,269707105,205608
30.2174,270076893,205523
30.2476,270381663,205430
30.2776,270681423,206118
30.3076,270982235,204965
30.3376,271281352,206890
30.3676,271550141,206100
30.3977,271875511,205859
30.4277,272179932,205261
30.4574,272480631,206874
30.4875,272782190,205722
30.5177,273081532,206289
30.5476,273380838,205886
30.5776,273658648,205820
30.6076,273978845,286236
30.6377,274282560,-255535
30.6678,274583981,153373
30.6976,274882525,877685
30.7279,275182101,300483
30.7578,275267126,302872
30.7875,275775889,210957
30.8177,276079878,-425697
30.8477,276380917,213340
30.8777,276682340,-63430
30.9077,276982160,-387163
30.9376,277279355,-199937
30.9677,277567199,223200
30.9975,277876997,-148249
31.0276,278180160,87791
31.0575,278480450,-282108
31.0877,278779612,-110217
31.1178,279077028,103252
31.1477,279280549,247543
31.1776,279676286,255878
31.2076,279978311,214343
31.2376,280280280,257590
31.2676,280581220,105913
31.2976,280879987,264738
31.3275,281164021,233731
31.3577,281473259,232435
31.3878,281779541,256537
31.4178,282081135,252056
31.4479,282382367,250526
31.4776,282679873,252576
31.5077,282980549,252952
31.5375,283251452,253051
31.5676,283578992,251976
31.5976,283880440,253725
31.6276,284181453,736727
31.6577,284482330,1703872
31.6876,284782029,3114800
31.7176,284903243,5050844
31.7477,285377014,5059119
31.7776,285681102,6468098
31.8076,285981768,6743674
31.8376,286281963,8615876
31.8676,286581134,8588545
31.8978,286880127,10380500
31.9276,287163731,12263095
31.9575,287477841,13954197
31.9877,287782371,14148202
32.0178,288082441,15953447
32.0476,288382583,17988269
32.0775,288680319,19684308
32.1077,288827113,19849743
32.1378,289277480,21821458
32.1676,289580832,22332900
32.1978,289881869,23438473
32.2276,290183425,25250196
32.2578,290482135,26384751
32.2876,290775444,27018303
32.3176,291073874,28858671
32.3476,291380245,28822649
32.3775,291680356,30669287
32.4077,291982739,31625030
32.4375,292281683,32537488
32.4679,292581300,34565535
32.4976,292841021,34479796
32.5278,293178083,36374889
32.5575,293481072,36327059
32.5876,293782821,38153769
32.6176,294082106,38184124
32.6477,294381297,40149096
32.6779,294600670,40072315
32.7075,294975397,40047784
32.7378,295280731,41712474
32.7677,295582328,41792310
32.7977,295882162,41785196
32.8275,296181104,41775419
32.8576,296479734,43514362
32.8876,296763765,43497474
32.9176,297078082,43526509
32.9477,297380657,43519495
32.9777,297681805,43515679
33.0077,297981510,43508836
33.0375,298279397,45219438
33.0676,298468188,45255516
33.0976,298877571,45248256
33.1275,299180481,45242092
33.1578,299481801,45238908
33.1878,299782671,45233934
33.2177,300081154,47086764
33.2477,300362738,47073818
33.2775,300674318,48892712
33.3079,300981471,48880586
33.3378,301282177,48897056
33.3678,301582702,50820603
33.3977,301881175,50839209
33.4277,302181412,52784950
33.4577,302454500,52776174
33.4875,302777053,52769181
33.5176,303081309,52770105
33.5475,303382403,54512860
33.5779,303683198,54625774
33.6078,303981826,54617763
33.6376,304060981,54611196
33.6677,304576781,56344723
33.6976,304880756,56438376
33.7278,305181662,56423932
33.7579,305483049,56421791
33.7877,305782200,58267704
33.8176,306080143,58275699
33.8474,306367369,58264556
33.8778,306680241,58256624
33.9077,306982023,58247312
33.9375,307282778,60041530
33.9675,307581819,60057109
33.9976,307882055,60058490
34.0279,308054548,60048654
34.0575,308475850,61848429
34.0875,308778755,61786050
34.1175,309080775,61778548
34.1478,309381952,61768566
34.1776,309682023,61767694
34.2078,309966604,61763678
34.2375,310273490,61759609
34.2677,310578617,61753495
34.2976,310881469,61749554
34.3278,311182847,61742919
34.3575,311481505,61738315
34.3876,311780789,61732783
34.4178,312052241,61727966
34.4475,312378146,61723224
34.4776,312681239,61718806
34.5078,312981455,61713694
34.5375,313281596,61710154
34.5676,313581116,61704061
34.5976,313653831,61699857
34.6275,314176263,61695190
34.6575,314480528,61690576
34.6876,314782435,61685661
34.7175,315082586,61680441
34.7477,315381620,61675400
34.7777,315679858,61670861
34.8078,315968715,61665037
34.8375,316278663,61661392
34.8679,316581612,61655601
34.8976,316881394,61650807
34.9278,317181560,61645290
34.9576,317480874,61641384
34.9876,317697030,61635324
35.0179,318077861,61631162
35.0476,318380912,61627096
35.0778,318681192,61622254
35.1079,318982771,61617197
35.1375,319280293,61613010
35.1677,319539123,61608905
35.1985,319876277,61605079
35.2277,320180020,61600204
35.2575,320480997,61597089
35.2878,320782470,61592894
35.3176,321081997,61588936
35.3476,321379892,61584275
35.3777,321663414,61580582
35.4075,321978174,61576730
35.4377,322280992,61572385
35.4677,322581438,61568768
35.4977,322881656,61564646
35.5276,323181516,61559954
35.5578,323356667,61555948
35.5878,323778132,61552245
35.6176,324081595,61547713
35.6478,324382458,61543424
35.6778,324683080,61540397
35.7075,324981217,61537057
35.7378,325277878,61533238
35.7677,325573786,61528789
35.7976,325880059,61525203
35.8275,326180642,61521276
35.8578,326481918,61517788
35.8877,326781588,61514154
35.9177,327081488,61510118
35.9476,327310251,61506405
35.9778,327677210,61503416
36.0075,327980390,61500215
36.0376,328281697,61497315
36.0678,328581567,61493311
36.0975,328880875,61489028
36.1278,329142006,61485456
36.1575,329476121,61483001
36.1875,329779834,61480367
36.2179,330082567,61475424
36.2476,330382347,61471705
36.2775,330680995,61468882
36.3077,330980842,61465848
36.3376,331261541,61462499
36.3678,331578094,61459312
36.3977,331880825,61456119
36.4276,332180807,61452361
36.4577,332482177,61449581
36.4879,332781975,61447188
36.5177,332931003,61443486
36.5479,333378453,61440220
36.5775,333680592,61437283
36.6076,333983054,61434696
36.6379,334283218,61431579
36.6678,334582179,61427898
36.6979,334877731,59779905
36.7278,335173105,59585935
36.7577,335480965,58133936
36.7877,335781572,57725179
36.8177,336081909,54146921
36.8477,336380151,52069639
36.8776,336679573,49355838
36.9076,336921789,48100878
36.9376,337277202,44867264
36.9676,337580295,44458419
36.9976,337880011,42604234
37.0276,338180659,40854903
37.0577,338478831,39000015
37.0876,338604773,37206392
37.1176,339075632,35371711
37.1476,339380492,32075586
37.1776,339683470,29623673
37.2075,339982924,27809289
37.2378,340282573,24876796
37.2676,340579284,22142329
37.2977,340870710,18523403
37.3277,341178341,16936204
37.3578,341481915,13171916
37.3876,341782786,9419535
37.4175,342082906,5736141
37.4477,342381327,3018068
37.4776,342598293,1052793
37.5076,342976371,1450200
37.5379,343280766,378293
37.5678,343581250,926523
37.5976,343881641,-240177
37.6274,344180350,1207779
37.6576,344458999,341120
37.6877,344775789,542086
37.7177,345080879,399532
37.7477,345382235,451092
37.7776,345684101,381413
37.8076,345981954,630628
37.8375,346280235,339339
37.8677,346534202,393112
37.8976,346878848,334023
37.9278,347180856,1009965
37.9576,347483844,769549
37.9878,347783865,-319732
38.0176,348084829,589626
38.0478,348291852,409224
38.0778,348676223,291579
38.1077,348980107,427108
38.1377,349281684,364632
38.1679,349583125,328355
38.1976,349881774,345771
38.2278,350181113,332235
38.2576,350468027,331665
38.2877,350779738,333421
38.3178,351081897,334388
38.3479,351382897,333222
38.3776,351681306,331981
38.4076,351980397,333061
38.4377,352184147,332329
38.4676,352578211,332011
38.4977,352880568,332091
38.5277,353182342,332624
38.5575,353481669,332231
38.5879,353781616,331655
38.6178,354063705,423003
38.6475,354374637,730658
38.6775,354680344,152013
38.7077,354982508,775470
38.7377,355282079,804746
38.7677,355581089,1134045
38.7976,355881116,446037
38.8275,356135708,64272
38.8577,356477372,805527
38.8878,356781409,752799
38.9177,357081410,324293
38.9477,357381125,484198
38.9776,357680341,289770
39.0076,357781000,299659
39.0377,358276082,282717
39.0676,358580096,305758
39.0978,358881762,302262
39.1278,359182398,290773
39.1578,359482801,295063
39.1877,359779911,297627
39.2178,360071138,294787
39.2476,360379335,294301
39.2776,360682339,295386
39.3075,360981886,296018
39.3375,361282384,294982
39.3678,361581768,294993
39.3976,361785749,294060
39.4278,362177814,294539
39.4576,362481145,294786
39.4876,362782021,295775
39.5175,363082249,294137
39.5478,363381812,294662
39.5775,363656087,293886
39.6078,363974307,295288
39.6378,364280557,294656
39.6675,364581599,294120
39.6979,364882887,294511
39.7278,365183681,294666
39.7577,365480795,294832
39.7877,365741339,294332
39.8178,366079173,294465
39.8478,366380570,295209
39.8778,366682153,294773
39.9078,366982063,294747
39.9377,367281725,293214
39.9678,367531910,294076
39.9977,367875245,295104
40.0277,368179934,294603
40.0577,368482034,294809
40.0875,368781797,296167
40.1177,369081355,294464
40.1475,369379383,294812
40.1777,369666261,295392
40.2079,369978875,295078
40.2377,370281379,293505
40.2677,370582329,294488
40.2979,370882725,294234
40.3276,371181533,295116
40.3576,371350177,265968
40.3876,371777469,286712
40.4179,372080821,398819
40.4476,372383192,396735
40.4779,372684060,326122
40.5075,372981798,298294
40.5378,373270486,313035
40.5677,373573811,-12327
40.5977,373878841,316676
40.6276,374180072,411694
40.6577,374481389,393342
40.6875,374781040,349979
40.7176,375080701,237185
40.7477,375326701,208620
40.7778,375678124,324444
40.8076,376007015,1198289
40.8378,376280461,829305
40.8678,376585289,-64209
40.8976,376890082,277683
40.9276,377145570,-219156
40.9577,377478862,-45536
40.9876,377782282,-52877
41.0177,378081655,74988
41.0476,378382447,102616
41.0776,378682067,81538
41.1076,378980695,63219
41.1378,379265464,66129
41.1677,379579794,62085
41.1977,379882259,66212
41.2277,380181566,80212
41.2577,380481987,65030
41.2878,380782435,64706
41.3178,380922244,64541
41.3477,381378044,62909
41.3778,381679944,64393
41.4076,381981442,65074
41.4379,382282658,63779
41.4677,382581790,66229
41.4978,382875178,64241
41.5276,383172679,63914
41.5577,383479260,66023
41.5878,383781905,63232
41.6178,384082574,66919
41.6478,384382314,64857
41.6778,384681399,63586
41.7078,384922529,63648
41.7376,385277820,66361
41.7677,385582204,64394
41.7977,385883200,63510
41.8277,386183368,63453
41.8578,386481752,65960
41.8875,386760912,62858
41.9176,387075389,64864
41.9478,387379788,64331
41.9776,387682828,65994
42.0076,387982762,65182
42.0376,388282007,62754
42.0676,388581710,66471
42.0979,388854554,66899
42.1276,389178284,64605
42.1578,389482104,64891
42.1876,389781592,66729
42.2177,390082322,65328
42.2479,390381658,65509
42.2776,390460261,66561
42.3076,390977912,65831
42.3376,391280785,64629
42.3678,391581954,65345
42.3978,391881954,64241
42.4275,392181719,63664
42.4576,392479598,64902
42.4878,392770302,65288
42.5176,393079686,64632
42.5477,393382119,64245
42.5779,393682731,64563
42.6078,393981796,64413
42.6376,394281547,64918
42.6677,394476470,64344
42.6978,394878009,65344
42.7278,395140238,64961
43.2295,395156157,64730
43.8294,395157644,66027
44.4294,395157806,65838
45.0295,395157559,69859
45.3297,395158694,63713